tstart	ftime	x0	y0	z0	vx0	vy0	vz0	ax	ay	az
0.075662308	0.304549592	-1.611007006	55	6.154691861	5.965681995	-134.3325462	-7.212973134	-11.36399981	28.80700035	-15.94899965
0.090393548	0.36363824	-1.218876347	55	6.044546586	-0.839844574	-112.4178143	4.924788458	10.41000036	19.92699928	-41.58200098
0.07764106	0.309195667	-1.348032083	55	6.006300565	3.481770058	-130.4007248	-6.60481968	1.513999973	20.74100037	-22.00099969
0.074890897	0.300135972	-1.214981041	55	6.162110229	3.604612404	-135.5035082	-6.568186847	-5.11999997	26.52999992	-11.47099996
0.075227077	0.301765623	-1.224868996	55	6.085073077	3.297573979	-134.9437577	-5.555497729	-12.67999979	26.90899963	-22.35800005
0.08754299	0.352832577	-1.241858226	55	6.19553975	-0.522082635	-116.1562709	0.618587155	10.08900026	22.1470005	-38.83499933
0.083880027	0.336923268	-1.102436981	55	6.025875183	1.522176221	-121.0812288	-2.245170617	-6.590000118	22.3439991	-24.21599985
0.074980014	0.300782458	-1.435742483	55	6.034881558	5.511003075	-135.3896934	-3.536172236	-3.696000005	27.10399933	-17.18000055
0.089449352	0.362381323	-1.155575652	55	6.169739382	0.272442147	-113.8882646	2.909052653	12.91399911	23.56400032	-42.19699884
0.075243262	0.301195115	-1.39982955	55	6.040925201	2.548960908	-134.8114726	-7.653716248	-7.279999937	25.50999947	-14.51600004
0.074608102	0.299532556	-1.215150166	55	6.09495101	4.645063754	-136.1043612	-7.886092126	-9.032000031	27.9140007	-13.4480002
0.074343309	0.298516109	-1.059672259	55	6.062277035	5.312121172	-136.5968348	-5.453670899	-8.167999949	28.21799965	-14.65100027
0.075151776	0.30181523	-1.254482668	55	6.075342408	7.068628564	-135.135888	-2.544053718	-13.12900015	27.72899933	-20.08399988
0.074033967	0.297494808	-1.479928047	55	6.115663873	4.183867411	-137.2043017	-4.137490557	-10.65700003	28.95600052	-18.38299966
0.076366805	0.305848292	-1.178508448	55	6.089847467	3.703898139	-132.8527041	-4.989046324	7.865999733	25.09100075	-21.60300089
0.074492684	0.29816949	-0.942871313	55	6.167555905	8.745384341	-136.166302	-3.786250469	-12.35799977	25.97899933	-20.67199922
0.074481477	0.298668905	-1.131536623	55	6.168346673	3.94005321	-136.2771306	-2.294870551	-14.09499976	27.21300049	-23.3570006
0.075291337	0.303086448	-1.235480659	55	6.081401073	4.136276548	-134.9992139	-5.96440406	-4.821000005	29.15599937	-13.89200044
0.090257025	0.365232008	-1.45472912	55	6.089848993	-1.595841972	-112.8234395	4.761521506	10.86899999	22.63099976	-42.19900156
0.077601223	0.310575744	-1.319380515	55	5.946738514	2.691145071	-130.7062149	-5.690696074	1.454999958	23.86699982	-22.09799982
0.08464472	0.340329496	-1.220090811	55	6.010095201	-1.101569458	-120.0298526	1.53822858	0.18099979	22.45	-26.7870009
0.074776721	0.300824143	-1.176036342	55	6.032231836	7.026743338	-135.8974247	-4.626284303	-15.42400023	29.14099998	-22.48900056
0.074383494	0.300253581	-1.164384079	55	6.119031056	5.228227893	-136.7803351	-4.336651718	-17.13999983	31.68899841	-20.52100015
0.087856776	0.355058942	-1.423377778	55	6.093719715	-1.651655407	-115.8528592	3.671652608	14.8719993	23.2739994	-41.37900186
0.083375096	0.333969851	-1.369321896	55	5.96518867	2.960435901	-121.6925392	-3.249565099	-3.236000027	21.13600082	-26.10499979
0.074458368	0.299731972	-0.938108522	55	6.158926523	8.304314468	-136.5092355	-8.332651561	-15.20900008	29.80899925	-18.47299982
0.075036416	0.301667916	-0.964504114	55	6.04813568	7.681495484	-135.3947188	-2.00157307	-13.50000044	28.5029995	-21.72500063
0.086971032	0.34818733	-1.161946518	55	5.9984383	1.997221934	-116.6382517	-1.235133635	-3.213000025	19.15999908	-26.26400018
0.078211809	0.313482123	-1.338020512	55	5.94415735	3.150534259	-129.7555421	-2.895902908	2.908000027	24.3970005	-24.28199983
0.074768695	0.299707939	-0.931331666	55	6.054539792	5.168128476	-135.735122	-4.266375019	-2.545999969	26.75400085	-15.81299997
0.074971151	0.301174015	-1.044298415	55	6.121578257	3.828655798	-135.4751179	-5.754277399	-5.173000003	28.04700012	-13.67700029
0.090069672	0.364988857	-1.475567199	55	6.095669893	0.921419858	-113.1141602	2.38627966	8.773000275	23.35600014	-43.24300027
0.087553973	0.355790297	-1.263696921	55	6.15352349	-1.447751209	-116.4780034	0.228106904	11.9799991	26.03499908	-42.31200052
0.085081766	0.340908315	-1.288037535	55	5.998123456	-0.35175502	-119.2644846	0.057450466	-1.312999929	20.45099945	-25.4650004
0.0770595	0.308912247	-1.390984984	55	6.047594543	3.425258821	-131.7033788	-4.957002696	3.404999767	25.23100014	-18.89600015
0.075228311	0.303663618	-1.189275743	55	6.084631981	4.990295016	-135.2442663	-8.548759615	-10.16200014	30.98099823	-14.84700037
0.078193372	0.314183139	-1.337034267	55	5.979021069	5.18169848	-129.9020645	-4.14495112	6.452000175	25.90800018	-21.24900079
0.075433975	0.304790931	-1.175182901	55	5.988997593	3.135802228	-134.9221239	-5.989612485	0.67700008	31.43799896	-11.6440003
0.074839433	0.300044097	-1.055819303	55	6.073093344	2.465334431	-135.6154514	-6.435074289	-7.900000061	26.82000084	-20.40099931
0.077557831	0.31173072	-1.382510411	55	6.037651576	5.337215211	-130.9818404	-5.449429781	6.77899984	26.53399963	-21.54299951
0.082627652	0.332008856	-1.110754155	55	6.077023369	5.014577356	-122.9319194	-4.944484035	-4.789999987	23.21600075	-19.36100031
0.086983632	0.351248478	-1.084654946	55	6.167014436	0.400107278	-116.982604	5.451875736	12.461	23.35699959	-42.37300134
0.086888434	0.349371806	-0.898262106	55	6.166334878	-0.923717453	-116.9328617	2.983091616	14.01699976	21.33500023	-40.58200098
0.07954967	0.317685776	-1.575860845	55	5.854127099	5.44016911	-127.4038196	-0.524362411	2.129000221	21.42999954	-23.83799959
0.075450485	0.303310621	-1.189609842	55	5.992627371	2.775311421	-134.6481741	-5.874369334	-2.664	28.14400024	-15.3070004
0.074909555	0.301838257	-0.98027471	55	6.074991605	3.846782984	-135.7336453	-5.210949912	-2.94099995	30.08100052	-14.97900034
0.07544882	0.302700069	-1.06695489	55	6.15201136	2.992971145	-134.5543922	-4.426721163	-13.914	26.84800072	-24.29800058
0.075219148	0.301002761	-1.163612303	55	6.004020599	6.268030681	-134.8390362	-1.097200229	-11.01900002	25.31599922	-26.27700067
0.087798242	0.354658841	-1.180687133	55	6.07226743	-1.287006617	-115.9112036	2.979964282	10.06399969	23.08699913	-45.14799905
0.077107176	0.30866727	-1.1801296	55	6.044491583	4.930560056	-131.5543808	-2.889185168	5.596000229	24.31400032	-23.77499986
0.074662777	0.301114136	-0.936147638	55	6.069053684	0.847632237	-136.2258397	-3.710793925	-3.08300003	30.87100143	-16.6099999
0.075095931	0.300755075	-1.006551568	55	6.045564582	8.024931537	-135.1004638	-3.765761176	-15.23699995	25.93999977	-22.75700021
0.077312467	0.30980792	-1.247176359	55	5.899240837	3.912251363	-131.2542318	-3.52031267	6.297000443	24.82800026	-25.5200007
0.078171753	0.312692671	-1.304431049	55	5.926384385	3.568597832	-129.7270582	-2.201146547	4.561000381	23.19399948	-24.40399957
0.086367848	0.349044271	-0.798186235	55	6.08075991	-1.699155654	-117.8503993	1.67932539	10.56399969	24.08699913	-45.51100183
0.074397096	0.299867019	-1.134148	55	5.993921267	7.707352926	-136.6838224	-5.389669301	-14.76499983	30.70400162	-20.67199922
0.077812497	0.310588086	-1.387581212	55	5.880308194	2.780538939	-130.22343	-5.887399547	0.634999786	22.07700081	-22.26300073
0.078559795	0.313815348	-1.348563922	55	5.866383306	3.417937955	-129.0216301	-0.289237967	3.52500013	22.13400002	-26.63800073
0.078202425	0.312249268	-1.634215283	55	5.835749965	-2.149432147	-129.5901153	-2.442927284	5.90099958	22.06400032	-25.60199953
0.086163367	0.348230333	-1.289184644	55	6.08975025	0.247668443	-118.1315708	1.008937824	11.79300073	24.2189991	-42.76400018
0.075569544	0.304368973	-1.069736562	55	6.041853704	8.408843078	-134.5279186	-5.374752328	-17.33299967	29.28600044	-23.37299944
0.075398874	0.302420301	-1.177773324	55	5.970039176	6.474022605	-134.6307322	-2.454633686	-12.3140001	26.71199913	-23.80500055
0.086159773	0.348399033	-1.241806497	55	6.101227585	1.589206213	-118.1584329	-0.847794954	11.35899976	24.47899933	-42.28400064
0.087902736	0.355296929	-1.190578114	55	6.096623187	1.733494519	-115.7982996	-0.443652388	9.995999847	23.31899948	-42.94300104
0.074562532	0.298946644	-1.230948016	55	6.051163322	4.678266087	-136.1211806	-5.429170295	-5.187999989	27.04799957	-14.72400022
0.075017898	0.300399995	-1.166807564	55	6.063522334	3.385992736	-135.2340176	-2.891836299	-11.37300011	25.90000076	-26.46999956
0.075882548	0.304668887	-1.055739296	55	6.009698095	9.207608453	-133.8216231	-2.288814928	-13.64100024	27.02600021	-21.12199998
0.077639119	0.311744377	-1.429817254	55	5.871654154	5.075331407	-130.7973944	-1.860064089	4.160999809	25.86200066	-27.54400087
0.087887739	0.354559913	-1.228108476	55	6.088361242	-3.071166027	-115.7398986	1.929594878	14.17999986	22.42599983	-44.70899988
0.079730327	0.317745131	-1.275992042	55	5.962827004	2.594189147	-127.0176295	-4.45031587	-9.552000011	20.09800072	-25.7719996
0.075211872	0.302230294	-1.45801703	55	6.040501253	1.905186334	-135.0558867	-7.020216496	-11.27899977	28.06100006	-25.47500063
0.07475285	0.299951046	-1.408826757	55	6.023027573	2.077343086	-135.8142078	-3.036208333	-8.696000065	27.44600029	-23.18599916
0.074593006	0.298891561	-1.306196794	55	6.108278611	0.451161705	-136.036287	-3.518628446	-0.654999937	26.62900085	-15.40800024
0.088358324	0.355435404	-1.071622469	55	6.188081341	-2.752350674	-115.0054243	5.339758538	9.195000206	20.83500023	-43.20299936
0.075460346	0.302714393	-1.096390187	55	6.007052645	5.419986128	-134.5287065	-3.650189767	-12.65199992	26.77099915	-21.38599992
0.075448986	0.302618272	-1.125539267	55	6.011113902	4.171901863	-134.5408256	-4.62232509	-8.736999954	26.66999931	-18.24799944
0.087699168	0.355634319	-1.214362657	55	6.085366003	-0.766298875	-116.2003674	5.605183269	11.22600034	24.96799965	-44.60300089
0.0778758	0.3122559	-1.484548466	55	5.89930181	3.997347534	-130.3336491	-3.86601082	6.249999557	24.84500046	-24.8799994
0.075253585	0.302512379	-1.016508438	55	6.046390537	7.12824636	-134.9994018	-3.137851267	-10.89900013	28.27699966	-18.39999986
0.076383794	0.306284463	-1.221033463	55	6.029181563	6.952955183	-132.8811913	0.438289908	-13.3969998	25.84800072	-20.66099954
0.074194247	0.296800033	-0.955911707	55	6.048113768	8.003671171	-136.6846174	-5.95759989	-2.797000016	25.78799934	-19.92499948
0.078664318	0.314434254	-1.467841214	55	5.828924009	5.228187731	-128.8804697	-3.632845087	1.742000137	22.46399994	-25.74399973
0.075912256	0.303573596	-1.426110399	55	5.956776874	4.893029778	-133.5753139	-7.712616999	-6.63000008	24.42200012	-17.12899995
0.078462065	0.313012077	-1.409495788	55	5.883695475	1.222091705	-129.1197048	-1.074702827	5.325999771	21.38300056	-25.10499979
0.084816074	0.339274739	-1.325015255	55	5.973301388	7.030321121	-119.5650561	-7.919558133	-9.086999859	19.70900078	-23.81699968
0.088483648	0.358282986	-1.438755069	55	5.977606355	-1.247666802	-115.1102735	3.440008266	14.91200021	23.84100075	-41.71099878
0.087697865	0.353194313	-1.056230494	55	5.932651136	-0.28315783	-115.9204022	0.787381148	2.658999954	21.71399994	-28.52499986
0.075558631	0.304961868	-1.100077971	55	5.929896542	5.379239751	-134.6475197	-3.112676894	-12.26100012	30.63700027	-22.74799944
0.0890701	0.360605455	-1.228842615	55	6.03182571	-1.745843855	-114.3465632	3.923156246	9.877000366	23.46199913	-43.69200159
0.078219577	0.313813932	-1.501382684	55	5.889866802	3.202759674	-129.7877405	-2.625737203	3.394000088	24.97499962	-24.52299905
